onset	duration	ACC	RT	condition
344827	2000	1	578	1
347063	2000	1	588	1
349298	2000	1	558	1
351550	2000	1	"""n/a"""	2
353803	2000	1	648	1
356072	2000	1	610	1
358340	2000	0	"""n/a"""	2
360609	2000	0	"""n/a"""	2
362845	2000	1	412	1
365097	2000	0	"""n/a"""	2
367365	2000	1	353	1
369618	2000	1	809	1
371871	2000	1	600	1
374156	2000	0	"""n/a"""	2
376424	2000	1	507	1
378678	2000	0	"""n/a"""	2
380913	2000	1	677	1
383165	2000	1	616	1
385418	2000	0	"""n/a"""	2
387670	2000	1	830	1
389954	2000	1	820	1
392207	2000	1	920	1
394476	2000	0	"""n/a"""	2
396729	2000	1	670	1
399013	2000	1	842	1
401266	2000	1	889	1
403519	2000	1	849	1
405803	2000	0	"""n/a"""	2
408072	2000	1	746	1
410325	2000	0	0	1
412578	2000	1	544	1
414862	2000	1	"""n/a"""	2
417115	2000	1	758	1
419368	2000	1	685	1
421653	2000	0	"""n/a"""	2
423921	2000	1	643	1
426174	2000	1	615	1
428427	2000	1	726	1
430711	2000	1	"""n/a"""	2
432964	2000	1	894	1
435217	2000	1	681	1
437486	2000	1	661	1
439770	2000	1	"""n/a"""	2
442023	2000	1	602	1
444276	2000	1	471	1
446560	2000	1	"""n/a"""	2
448813	2000	1	700	1
451082	2000	0	"""n/a"""	2
453335	2000	1	610	1
455619	2000	1	734	1
457872	2000	1	670	1
460125	2000	1	778	1
462409	2000	0	"""n/a"""	2
464678	2000	1	465	1
466947	2000	1	798	1
469201	2000	0	"""n/a"""	2
471453	2000	1	671	1
473722	2000	1	668	1
475990	2000	1	802	1
478259	2000	0	"""n/a"""	2
480512	2000	1	863	1
482781	2000	0	0	1
485049	2000	1	807	1
487318	2000	1	"""n/a"""	2
489586	2000	1	857	1
491840	2000	1	"""n/a"""	2
494092	2000	1	813	1
496361	2000	1	729	1
498630	2000	1	"""n/a"""	2
500898	2000	1	756	1
503167	2000	1	"""n/a"""	2
505435	2000	1	801	1
507704	2000	1	817	1
509957	2000	1	715	1
512226	2000	0	"""n/a"""	2
514479	2000	1	744	1
516763	2000	1	832	1
519016	2000	1	654	1
521269	2000	1	813	1
523505	2000	1	"""n/a"""	2
525757	2000	1	829	1
528009	2000	1	819	1
530244	2000	1	693	1
532496	2000	0	"""n/a"""	2
534732	2000	1	664	1
536984	2000	1	"""n/a"""	2
539237	2000	1	682	1
541472	2000	1	676	1
543708	2000	1	670	1
545944	2000	0	"""n/a"""	2
548179	2000	1	598	1
550414	2000	1	484	1
552650	2000	1	456	1
554886	2000	0	"""n/a"""	2
557121	2000	1	674	1
559356	2000	0	0	1
561593	2000	0	"""n/a"""	2
563828	2000	1	551	1
566063	2000	1	675	1
568299	2000	1	848	1
570535	2000	0	"""n/a"""	2
572770	2000	1	759	1
575005	2000	0	0	1
577241	2000	1	332	1
579494	2000	0	"""n/a"""	2
581729	2000	1	525	1
583964	2000	1	577	1
586216	2000	1	"""n/a"""	2
588485	2000	1	"""n/a"""	2
590738	2000	1	952	1
592990	2000	1	913	1
595226	2000	1	"""n/a"""	2
597478	2000	1	889	1
599730	2000	1	877	1
601966	2000	0	"""n/a"""	2
604218	2000	0	978	1
606502	2000	1	666	1
608771	2000	1	895	1
611024	2000	1	982	1
613293	2000	0	"""n/a"""	2
683012	2000	1	406	1
685281	2000	1	"""n/a"""	2
687534	2000	1	384	1
689818	2000	1	533	1
692071	2000	1	439	1
694339	2000	1	"""n/a"""	2
696592	2000	1	434	1
698845	2000	1	374	1
701114	2000	1	417	1
703398	2000	1	"""n/a"""	2
705651	2000	1	430	1
707904	2000	1	442	1
710173	2000	0	519	1
712457	2000	1	"""n/a"""	2
714710	2000	1	620	1
716979	2000	1	"""n/a"""	2
719232	2000	1	482	1
721516	2000	1	725	1
723770	2000	0	"""n/a"""	2
726022	2000	1	476	1
728306	2000	1	586	1
730559	2000	1	418	1
732828	2000	1	"""n/a"""	2
735081	2000	1	488	1
737350	2000	1	452	1
739618	2000	0	378	1
741887	2000	1	"""n/a"""	2
744140	2000	1	667	1
746424	2000	1	690	1
748677	2000	1	648	1
750930	2000	1	681	1
753214	2000	0	"""n/a"""	2
755483	2000	1	632	1
757736	2000	1	603	1
759989	2000	1	631	1
762273	2000	0	"""n/a"""	2
764526	2000	1	603	1
766779	2000	1	637	1
769064	2000	0	"""n/a"""	2
771332	2000	1	388	1
773585	2000	1	543	1
775854	2000	1	"""n/a"""	2
778107	2000	1	566	1
780391	2000	1	"""n/a"""	2
782644	2000	1	918	1
784897	2000	1	694	1
787181	2000	1	"""n/a"""	2
789434	2000	1	668	1
791687	2000	1	870	1
793956	2000	0	817	1
796240	2000	1	699	1
798494	2000	1	"""n/a"""	2
800762	2000	1	"""n/a"""	2
803031	2000	1	729	1
805283	2000	1	515	1
807552	2000	0	"""n/a"""	2
809805	2000	1	375	1
812089	2000	1	626	1
814342	2000	1	617	1
816611	2000	1	"""n/a"""	2
818864	2000	1	679	1
821148	2000	1	605	1
823402	2000	1	"""n/a"""	2
825654	2000	1	496	1
827938	2000	1	489	1
830191	2000	1	700	1
832460	2000	0	"""n/a"""	2
834713	2000	1	470	1
836997	2000	1	"""n/a"""	2
839250	2000	1	605	1
841503	2000	1	483	1
843787	2000	1	736	1
846040	2000	1	526	1
848309	2000	1	"""n/a"""	2
850562	2000	1	626	1
852846	2000	1	368	1
855099	2000	1	419	1
857368	2000	1	"""n/a"""	2
859621	2000	1	535	1
861905	2000	1	388	1
864159	2000	1	"""n/a"""	2
866411	2000	1	435	1
868695	2000	1	561	1
870949	2000	1	"""n/a"""	2
873201	2000	1	629	1
875470	2000	1	505	1
877754	2000	0	"""n/a"""	2
880007	2000	1	432	1
882260	2000	1	461	1
884529	2000	0	430	1
886813	2000	0	"""n/a"""	2
889066	2000	1	610	1
891319	2000	0	0	1
893603	2000	1	"""n/a"""	2
895857	2000	0	"""n/a"""	2
898109	2000	1	551	1
900394	2000	1	"""n/a"""	2
902663	2000	1	724	1
904916	2000	0	0	1
907168	2000	1	450	1
909453	2000	1	"""n/a"""	2
911721	2000	1	664	1
913974	2000	1	632	1
916227	2000	1	709	1
918511	2000	0	"""n/a"""	2
920780	2000	1	608	1
923033	2000	1	662	1
925286	2000	1	383	1
927570	2000	0	"""n/a"""	2
929824	2000	1	480	1
932092	2000	1	497	1
934345	2000	1	825	1
936629	2000	0	0	1
938883	2000	1	"""n/a"""	2
941151	2000	1	921	1
943420	2000	1	"""n/a"""	2
945688	2000	0	879	1
947941	2000	1	679	1
950194	2000	1	543	1
952478	2000	0	"""n/a"""	2
990016	2000	1	543	1
992269	2000	1	468	1
994538	2000	1	617	1
996822	2000	1	"""n/a"""	2
999076	2000	1	"""n/a"""	2
1001344	2000	1	342	1
1003597	2000	1	290	1
1005881	2000	1	503	1
1008134	2000	1	278	1
1010403	2000	0	"""n/a"""	2
1012656	2000	1	269	1
1014940	2000	1	442	1
1017194	2000	1	"""n/a"""	2
1019446	2000	0	357	1
1021730	2000	1	344	1
1023983	2000	1	424	1
1026236	2000	1	589	1
1028521	2000	1	"""n/a"""	2
1030789	2000	1	502	1
1033042	2000	1	516	1
1035311	2000	1	376	1
1037579	2000	1	"""n/a"""	2
1039849	2000	1	972	1
1042102	2000	1	"""n/a"""	2
1044370	2000	1	704	1
1046638	2000	1	509	1
1048907	2000	0	"""n/a"""	2
1051160	2000	0	0	1
1053413	2000	0	0	1
1055697	2000	1	420	1
1057951	2000	1	"""n/a"""	2
1060203	2000	1	748	1
1062488	2000	1	"""n/a"""	2
1064756	2000	1	733	1
1067009	2000	1	467	1
1069278	2000	1	"""n/a"""	2
1071531	2000	1	665	1
1073799	2000	1	815	1
1076068	2000	1	"""n/a"""	2
1078337	2000	1	545	1
1080605	2000	0	915	1
1082859	2000	0	"""n/a"""	2
1085111	2000	1	552	1
1087380	2000	1	361	1
1089664	2000	0	0	1
1091918	2000	1	"""n/a"""	2
1094186	2000	1	541	1
1096454	2000	1	"""n/a"""	2
1098724	2000	1	799	1
1100976	2000	0	0	1
1103229	2000	1	571	1
1105513	2000	1	"""n/a"""	2
1107783	2000	1	479	1
1110035	2000	1	535	1
1112288	2000	1	476	1
1114572	2000	1	"""n/a"""	2
1116842	2000	1	576	1
1119094	2000	1	497	1
1121347	2000	1	673	1
1123631	2000	1	"""n/a"""	2
1125901	2000	1	581	1
1128153	2000	1	480	1
1130406	2000	1	399	1
1132690	2000	1	"""n/a"""	2
1134960	2000	0	886	1
1137212	2000	1	703	1
1139480	2000	1	693	1
1141733	2000	1	968	1
1144002	2000	0	"""n/a"""	2
1146255	2000	1	571	1
1148539	2000	0	564	1
1150792	2000	1	494	1
1153061	2000	1	"""n/a"""	2
1155330	2000	1	388	1
1157598	2000	1	616	1
1159852	2000	1	"""n/a"""	2
1162120	2000	1	317	1
1164373	2000	1	720	1
1166641	2000	1	814	1
1168910	2000	1	"""n/a"""	2
1171179	2000	1	665	1
1173447	2000	1	526	1
1175700	2000	1	535	1
1177953	2000	1	378	1
1180238	2000	1	"""n/a"""	2
1182507	2000	1	644	1
1184759	2000	1	477	1
1187012	2000	1	517	1
1189296	2000	1	"""n/a"""	2
1191566	2000	1	398	1
1193819	2000	1	"""n/a"""	2
1196071	2000	0	490	1
1198355	2000	1	367	1
1200609	2000	1	"""n/a"""	2
1202878	2000	1	"""n/a"""	2
1205146	2000	1	679	1
1207414	2000	1	950	1
1209667	2000	1	586	1
1211936	2000	1	"""n/a"""	2
1214205	2000	1	786	1
1216473	2000	0	0	1
1218727	2000	1	"""n/a"""	2
1220995	2000	1	675	1
1223263	2000	1	752	1
1225532	2000	1	"""n/a"""	2
1227802	2000	0	572	1
1230054	2000	1	392	1
1232322	2000	1	429	1
1234576	2000	1	"""n/a"""	2
1236844	2000	1	645	1
1239097	2000	1	466	1
1241381	2000	1	796	1
1243635	2000	1	"""n/a"""	2
1245903	2000	1	517	1
1248171	2000	1	"""n/a"""	2
1250441	2000	1	611	1
1252694	2000	1	"""n/a"""	2
1254962	2000	1	670	1
1257230	2000	1	584	1
1259484	2000	1	"""n/a"""	2
