onset	duration	ACC	RT	condition
262104	2000	1	749	1
264340	2000	1	654	1
266608	2000	0	"""n/a"""	2
268845	2000	0	"""n/a"""	2
271096	2000	1	406	1
273349	2000	1	417	1
275634	2000	1	409	1
277902	2000	1	"""n/a"""	2
280171	2000	1	537	1
282424	2000	1	587	1
284677	2000	1	509	1
286961	2000	1	484	1
289215	2000	0	"""n/a"""	2
291467	2000	1	745	1
293752	2000	0	"""n/a"""	2
296005	2000	1	587	1
298289	2000	1	533	1
300542	2000	0	"""n/a"""	2
302795	2000	1	695	1
305079	2000	0	"""n/a"""	2
307332	2000	1	478	1
309585	2000	1	675	1
311870	2000	1	767	1
314138	2000	0	"""n/a"""	2
316391	2000	1	500	1
318644	2000	1	755	1
320928	2000	1	"""n/a"""	2
323198	2000	1	643	1
325450	2000	1	925	1
327703	2000	1	598	1
329987	2000	0	"""n/a"""	2
332256	2000	1	661	1
334509	2000	1	570	1
336778	2000	0	"""n/a"""	2
339031	2000	1	455	1
341315	2000	1	520	1
343569	2000	1	"""n/a"""	2
345821	2000	1	724	1
348090	2000	1	735	1
350358	2000	1	885	1
352627	2000	1	"""n/a"""	2
354880	2000	1	652	1
357149	2000	1	599	1
359417	2000	1	687	1
361670	2000	1	603	1
363955	2000	1	"""n/a"""	2
366208	2000	1	483	1
368492	2000	1	771	1
370745	2000	1	610	1
373014	2000	0	"""n/a"""	2
375267	2000	1	491	1
377551	2000	1	475	1
379804	2000	1	612	1
382073	2000	0	"""n/a"""	2
384326	2000	1	779	1
386595	2000	1	656	1
388879	2000	1	662	1
391133	2000	0	"""n/a"""	2
393385	2000	1	828	1
395669	2000	0	"""n/a"""	2
397922	2000	1	720	1
400175	2000	1	684	1
402444	2000	1	804	1
404728	2000	1	"""n/a"""	2
406981	2000	1	850	1
409234	2000	1	891	1
411518	2000	1	629	1
413772	2000	0	"""n/a"""	2
416024	2000	1	929	1
418293	2000	1	713	1
420577	2000	1	512	1
422831	2000	0	"""n/a"""	2
425083	2000	1	862	1
427351	2000	1	782	1
429620	2000	0	0	1
431889	2000	1	"""n/a"""	2
434157	2000	1	918	1
436410	2000	1	"""n/a"""	2
438663	2000	1	810	1
440898	2000	1	829	1
443134	2000	1	899	1
445370	2000	1	"""n/a"""	2
447622	2000	1	614	1
449874	2000	1	710	1
452110	2000	1	"""n/a"""	2
454362	2000	1	472	1
456614	2000	1	878	1
458849	2000	0	0	1
461101	2000	0	"""n/a"""	2
463337	2000	1	935	1
465573	2000	1	922	1
467808	2000	1	752	1
470044	2000	1	821	1
472312	2000	0	"""n/a"""	2
474565	2000	1	509	1
476817	2000	1	571	1
479085	2000	1	896	1
481339	2000	1	"""n/a"""	2
483591	2000	1	854	1
485860	2000	1	764	1
488129	2000	1	"""n/a"""	2
490381	2000	1	775	1
492650	2000	1	649	1
494919	2000	1	804	1
497203	2000	1	808	1
499457	2000	1	"""n/a"""	2
501709	2000	1	694	1
503978	2000	0	"""n/a"""	2
506230	2000	1	795	1
508514	2000	0	0	1
510767	2000	1	"""n/a"""	2
513036	2000	0	"""n/a"""	2
515289	2000	1	877	1
517558	2000	1	974	1
519842	2000	0	"""n/a"""	2
522111	2000	1	811	1
524365	2000	1	"""n/a"""	2
526617	2000	1	805	1
528901	2000	1	758	1
531155	2000	0	"""n/a"""	2
569793	2000	1	942	1
572045	2000	1	639	1
574297	2000	1	637	1
576550	2000	0	"""n/a"""	2
578802	2000	1	618	1
581086	2000	1	747	1
583323	2000	1	851	1
585592	2000	1	601	1
587876	2000	1	"""n/a"""	2
590145	2000	1	593	1
592398	2000	1	527	1
594667	2000	1	"""n/a"""	2
596920	2000	1	748	1
599188	2000	1	729	1
601441	2000	1	838	1
603726	2000	0	"""n/a"""	2
605962	2000	1	618	1
608214	2000	1	865	1
610450	2000	0	0	1
612734	2000	0	"""n/a"""	2
614987	2000	1	785	1
617240	2000	1	516	1
619525	2000	1	"""n/a"""	2
621778	2000	1	756	1
624046	2000	1	834	1
626282	2000	1	841	1
628535	2000	0	"""n/a"""	2
630787	2000	1	"""n/a"""	2
633039	2000	1	634	1
635308	2000	1	581	1
637592	2000	1	656	1
639846	2000	0	"""n/a"""	2
642098	2000	1	770	1
644382	2000	1	"""n/a"""	2
646651	2000	1	605	1
648905	2000	0	"""n/a"""	2
651140	2000	1	564	1
653392	2000	1	720	1
655645	2000	0	"""n/a"""	2
657897	2000	1	700	1
660149	2000	1	592	1
662401	2000	1	514	1
664637	2000	1	962	1
666922	2000	1	"""n/a"""	2
669175	2000	1	728	1
671443	2000	1	523	1
673712	2000	1	"""n/a"""	2
675965	2000	1	853	1
678249	2000	1	556	1
680503	2000	0	"""n/a"""	2
682738	2000	1	989	1
684990	2000	1	588	1
687242	2000	1	515	1
689511	2000	1	"""n/a"""	2
691764	2000	1	613	1
694048	2000	1	"""n/a"""	2
696301	2000	1	377	1
698554	2000	1	681	1
700823	2000	1	584	1
703107	2000	1	"""n/a"""	2
705360	2000	1	867	1
707596	2000	1	511	1
709848	2000	1	849	1
712100	2000	1	817	1
714369	2000	0	"""n/a"""	2
716637	2000	1	885	1
718890	2000	1	"""n/a"""	2
721143	2000	1	888	1
723395	2000	1	672	1
725648	2000	0	"""n/a"""	2
727899	2000	1	823	1
730152	2000	1	665	1
732436	2000	0	"""n/a"""	2
734705	2000	1	567	1
736942	2000	1	686	1
739211	2000	1	778	1
741495	2000	1	"""n/a"""	2
743764	2000	1	713	1
746017	2000	1	711	1
748253	2000	1	581	1
750506	2000	1	"""n/a"""	2
752757	2000	0	0	1
754993	2000	1	459	1
757245	2000	1	748	1
759498	2000	0	"""n/a"""	2
761750	2000	1	677	1
764019	2000	1	809	1
766271	2000	1	644	1
768556	2000	0	"""n/a"""	2
770809	2000	1	793	1
773093	2000	0	"""n/a"""	2
775346	2000	1	902	1
777582	2000	1	635	1
779834	2000	0	649	1
782102	2000	1	469	1
784371	2000	1	"""n/a"""	2
786625	2000	1	"""n/a"""	2
788877	2000	1	407	1
791145	2000	1	884	1
793398	2000	1	625	1
795683	2000	1	"""n/a"""	2
797952	2000	1	773	1
800220	2000	1	696	1
802474	2000	0	"""n/a"""	2
804726	2000	1	909	1
807011	2000	0	"""n/a"""	2
809247	2000	1	796	1
811499	2000	1	674	1
813751	2000	1	813	1
816019	2000	0	"""n/a"""	2
818272	2000	1	827	1
820525	2000	1	760	1
822809	2000	1	"""n/a"""	2
825062	2000	1	967	1
827315	2000	1	770	1
829584	2000	0	0	1
831868	2000	0	"""n/a"""	2
834121	2000	1	695	1
836374	2000	0	0	1
838659	2000	1	"""n/a"""	2
875129	2000	1	556	1
877398	2000	1	549	1
879683	2000	0	"""n/a"""	2
881936	2000	1	636	1
884204	2000	1	729	1
886457	2000	1	740	1
888742	2000	1	"""n/a"""	2
890995	2000	1	764	1
893264	2000	1	"""n/a"""	2
895516	2000	1	741	1
897801	2000	0	"""n/a"""	2
900054	2000	1	503	1
902338	2000	1	725	1
904592	2000	1	"""n/a"""	2
906844	2000	1	422	1
909128	2000	1	644	1
911382	2000	0	"""n/a"""	2
913634	2000	1	780	1
915918	2000	1	869	1
918172	2000	1	745	1
920441	2000	0	"""n/a"""	2
922693	2000	1	721	1
924961	2000	1	794	1
927230	2000	0	"""n/a"""	2
929483	2000	0	0	1
931752	2000	1	541	1
934020	2000	1	752	1
936273	2000	1	801	1
938558	2000	1	"""n/a"""	2
940811	2000	1	556	1
943080	2000	0	"""n/a"""	2
945332	2000	1	671	1
947601	2000	0	0	1
949885	2000	1	579	1
952139	2000	1	"""n/a"""	2
954407	2000	1	628	1
956660	2000	1	674	1
958944	2000	1	642	1
961198	2000	0	"""n/a"""	2
963450	2000	1	666	1
965719	2000	1	731	1
968003	2000	1	637	1
970256	2000	1	783	1
972525	2000	0	"""n/a"""	2
974794	2000	1	"""n/a"""	2
977047	2000	0	0	1
979331	2000	1	799	1
981584	2000	1	537	1
983852	2000	1	"""n/a"""	2
986122	2000	1	656	1
988374	2000	1	750	1
990627	2000	1	624	1
992911	2000	0	"""n/a"""	2
995164	2000	1	905	1
997417	2000	1	669	1
999701	2000	1	787	1
1001970	2000	1	"""n/a"""	2
1004240	2000	0	622	1
1006492	2000	1	455	1
1008761	2000	1	"""n/a"""	2
1011030	2000	1	972	1
1013282	2000	1	413	1
1015535	2000	1	628	1
1017819	2000	1	"""n/a"""	2
1020072	2000	1	634	1
1022341	2000	0	"""n/a"""	2
1024594	2000	1	486	1
1026878	2000	1	818	1
1029147	2000	1	672	1
1031400	2000	0	0	1
1033669	2000	0	"""n/a"""	2
1035937	2000	1	600	1
1038190	2000	1	740	1
1040443	2000	1	527	1
1042728	2000	1	"""n/a"""	2
1044997	2000	1	806	1
1047265	2000	0	718	1
1049519	2000	1	"""n/a"""	2
1051787	2000	1	484	1
1054040	2000	1	504	1
1056309	2000	0	"""n/a"""	2
1058561	2000	1	626	1
1060830	2000	1	565	1
1063114	2000	1	658	1
1065383	2000	1	554	1
1067637	2000	0	"""n/a"""	2
1069889	2000	1	458	1
1072158	2000	1	867	1
1074427	2000	1	"""n/a"""	2
1076695	2000	0	744	1
1078948	2000	1	502	1
1081232	2000	1	537	1
1083486	2000	1	"""n/a"""	2
1085754	2000	1	751	1
1088007	2000	1	476	1
1090291	2000	1	528	1
1092545	2000	0	"""n/a"""	2
1094797	2000	1	826	1
1097081	2000	0	"""n/a"""	2
1099350	2000	1	526	1
1101603	2000	1	563	1
1103856	2000	1	557	1
1106140	2000	1	"""n/a"""	2
1108410	2000	1	776	1
1110662	2000	0	539	1
1112915	2000	1	519	1
1115199	2000	1	"""n/a"""	2
1117469	2000	1	699	1
1119722	2000	1	"""n/a"""	2
1121990	2000	1	736	1
1124258	2000	1	937	1
1126512	2000	1	"""n/a"""	2
1128780	2000	1	492	1
1131033	2000	1	766	1
1133317	2000	1	700	1
1135571	2000	0	"""n/a"""	2
1137839	2000	1	"""n/a"""	2
1140108	2000	1	839	1
1142376	2000	1	672	1
1144630	2000	0	"""n/a"""	2
