onset	duration	ACC	RT	condition
703993	2000	0	292	1
706229	2000	1	478	1
708480	2000	1	"""n/a"""	2
710733	2000	1	452	1
712969	2000	1	274	1
715205	2000	0	256	1
717440	2000	0	0	1
719692	2000	1	"""n/a"""	2
721945	2000	0	0	1
724180	2000	0	0	1
726432	2000	0	"""n/a"""	2
728668	2000	1	358	1
730921	2000	1	"""n/a"""	2
733173	2000	0	"""n/a"""	2
735408	2000	1	427	1
737660	2000	1	414	1
739912	2000	1	389	1
742181	2000	1	"""n/a"""	2
744449	2000	1	430	1
746702	2000	1	401	1
748955	2000	0	0	1
751240	2000	1	"""n/a"""	2
753493	2000	0	0	1
755745	2000	1	398	1
758014	2000	0	0	1
760298	2000	0	"""n/a"""	2
762551	2000	0	0	1
764787	2000	0	0	1
833105	2000	1	460	1
835341	2000	1	"""n/a"""	2
837593	2000	0	0	1
839828	2000	1	505	1
842080	2000	0	"""n/a"""	2
844316	2000	0	0	1
846552	2000	0	"""n/a"""	2
848820	2000	1	511	1
851089	2000	1	534	1
853359	2000	1	"""n/a"""	2
855627	2000	1	842	1
857880	2000	0	"""n/a"""	2
860115	2000	0	0	1
862351	2000	0	0	1
864603	2000	0	0	1
866839	2000	0	"""n/a"""	2
869090	2000	0	0	1
871326	2000	1	543	1
873578	2000	1	440	1
875831	2000	1	"""n/a"""	2
878150	2000	1	533	1
880418	2000	1	386	1
882654	2000	1	482	1
884890	2000	0	"""n/a"""	2
887208	2000	1	360	1
889461	2000	1	445	1
891713	2000	1	503	1
893965	2000	1	411	1
896217	2000	0	"""n/a"""	2
898453	2000	1	568	1
900689	2000	0	0	1
902924	2000	0	"""n/a"""	2
905160	2000	0	0	1
907395	2000	0	0	1
909631	2000	0	0	1
911866	2000	1	532	1
914118	2000	1	"""n/a"""	2
916371	2000	0	0	1
918606	2000	1	831	1
920842	2000	1	479	1
923078	2000	0	"""n/a"""	2
925313	2000	1	439	1
927566	2000	0	"""n/a"""	2
929801	2000	1	639	1
932036	2000	0	0	1
934288	2000	1	"""n/a"""	2
936541	2000	1	853	1
938776	2000	0	0	1
941028	2000	1	"""n/a"""	2
943281	2000	1	734	1
945516	2000	1	312	1
947752	2000	0	783	1
949988	2000	0	"""n/a"""	2
952223	2000	1	728	1
954458	2000	0	0	1
956694	2000	0	0	1
958930	2000	0	"""n/a"""	2
961165	2000	1	894	1
963401	2000	1	993	1
965653	2000	1	307	1
967889	2000	0	"""n/a"""	2
970124	2000	0	0	1
972359	2000	0	0	1
974595	2000	0	0	1
976830	2000	1	345	1
979067	2000	1	"""n/a"""	2
981318	2000	1	873	1
983554	2000	1	393	1
985790	2000	0	"""n/a"""	2
988025	2000	1	730	1
990260	2000	1	322	1
992496	2000	1	321	1
994747	2000	1	"""n/a"""	2
997000	2000	1	462	1
999236	2000	1	455	1
1001487	2000	0	"""n/a"""	2
1003740	2000	0	"""n/a"""	2
1005976	2000	0	0	1
1008212	2000	0	0	1
1010447	2000	1	360	1
1012699	2000	1	"""n/a"""	2
1014967	2000	1	724	1
1017204	2000	0	0	1
1019456	2000	0	0	1
1021707	2000	0	"""n/a"""	2
1023944	2000	1	756	1
1026180	2000	0	"""n/a"""	2
1028432	2000	1	530	1
1030701	2000	0	0	1
1032969	2000	0	"""n/a"""	2
1035205	2000	0	0	1
1037456	2000	0	"""n/a"""	2
1184286	2000	1	696	1
1186538	2000	1	361	1
1188791	2000	1	376	1
1191060	2000	1	"""n/a"""	2
1193312	2000	1	433	1
1195581	2000	1	258	1
1197850	2000	1	279	1
1200118	2000	1	"""n/a"""	2
1202371	2000	1	390	1
1204656	2000	1	"""n/a"""	2
1206924	2000	1	573	1
1209177	2000	1	394	1
1211446	2000	1	"""n/a"""	2
1213699	2000	1	602	1
1215968	2000	1	681	1
1218252	2000	1	396	1
1220505	2000	1	320	1
1222774	2000	1	"""n/a"""	2
1225042	2000	1	720	1
1227295	2000	1	386	1
1229564	2000	1	"""n/a"""	2
1231817	2000	1	715	1
1234101	2000	1	483	1
1236354	2000	1	330	1
1238623	2000	1	"""n/a"""	2
1240876	2000	1	641	1
1243160	2000	0	"""n/a"""	2
1245413	2000	1	593	1
1247682	2000	1	"""n/a"""	2
1249950	2000	1	466	1
1252203	2000	1	788	1
1254472	2000	1	643	1
1256741	2000	1	"""n/a"""	2
1258994	2000	1	588	1
1261278	2000	1	651	1
1263531	2000	1	604	1
1265800	2000	0	"""n/a"""	2
1268053	2000	1	635	1
1270337	2000	1	368	1
1272591	2000	1	"""n/a"""	2
1274843	2000	1	837	1
1277127	2000	1	488	1
1279380	2000	1	424	1
1281649	2000	1	"""n/a"""	2
1283902	2000	1	680	1
1286186	2000	0	0	1
1288440	2000	0	"""n/a"""	2
1290708	2000	0	"""n/a"""	2
1292961	2000	1	413	1
1295229	2000	1	664	1
1297482	2000	1	339	1
1299751	2000	1	546	1
1302035	2000	0	"""n/a"""	2
1304288	2000	1	544	1
1306541	2000	1	817	1
1308825	2000	1	"""n/a"""	2
1311078	2000	1	638	1
1313331	2000	1	452	1
1315600	2000	1	730	1
1317884	2000	0	"""n/a"""	2
1320137	2000	1	587	1
1322405	2000	0	"""n/a"""	2
1324674	2000	1	517	1
1326927	2000	1	492	1
1329196	2000	1	"""n/a"""	2
1331465	2000	1	"""n/a"""	2
1333733	2000	1	774	1
1335986	2000	1	473	1
1338239	2000	1	423	1
1340523	2000	1	589	1
1342777	2000	0	"""n/a"""	2
1345029	2000	1	530	1
1347298	2000	1	582	1
1349582	2000	0	"""n/a"""	2
1351835	2000	1	434	1
1354088	2000	1	342	1
1356357	2000	1	441	1
1358641	2000	0	"""n/a"""	2
1360894	2000	1	321	1
1363147	2000	1	412	1
1365416	2000	1	844	1
1367700	2000	1	"""n/a"""	2
1369954	2000	1	502	1
1372222	2000	1	687	1
1374491	2000	1	"""n/a"""	2
1376744	2000	1	660	1
1379012	2000	1	483	1
1381265	2000	1	441	1
1383549	2000	0	"""n/a"""	2
1385818	2000	1	553	1
1388071	2000	1	789	1
1390340	2000	1	"""n/a"""	2
1392593	2000	1	827	1
1394862	2000	0	"""n/a"""	2
1397114	2000	1	579	1
1399383	2000	1	501	1
1401667	2000	1	489	1
1403921	2000	1	"""n/a"""	2
1406173	2000	1	622	1
1408442	2000	1	272	1
1410710	2000	1	357	1
1412979	2000	1	"""n/a"""	2
1415232	2000	1	583	1
1417516	2000	1	481	1
1419770	2000	0	"""n/a"""	2
1422022	2000	1	594	1
1424291	2000	1	843	1
1426560	2000	1	426	1
1428844	2000	1	536	1
1431098	2000	0	"""n/a"""	2
1433350	2000	1	528	1
1435619	2000	1	674	1
1437887	2000	0	0	1
1440156	2000	1	"""n/a"""	2
1442409	2000	1	810	1
1444694	2000	1	"""n/a"""	2
1446962	2000	1	891	1
1449215	2000	1	924	1
1451468	2000	0	0	1
1453737	2000	0	"""n/a"""	2
1483132	2000	1	636	1
1485400	2000	1	402	1
1487653	2000	1	301	1
1489906	2000	1	366	1
1492190	2000	1	"""n/a"""	2
1494443	2000	1	436	1
1496696	2000	1	471	1
1498965	2000	1	345	1
1501249	2000	1	"""n/a"""	2
1503502	2000	1	465	1
1505755	2000	0	0	1
1508039	2000	1	478	1
1510293	2000	1	"""n/a"""	2
1512545	2000	1	712	1
1514814	2000	1	566	1
1517083	2000	1	618	1
1519367	2000	1	"""n/a"""	2
1521620	2000	1	764	1
1523873	2000	1	667	1
1526157	2000	1	"""n/a"""	2
1528426	2000	1	674	1
1530679	2000	1	516	1
1532932	2000	1	385	1
1535201	2000	1	600	1
1537485	2000	0	"""n/a"""	2
1539738	2000	1	635	1
1542007	2000	0	"""n/a"""	2
1544275	2000	0	"""n/a"""	2
1546544	2000	1	281	1
1548798	2000	0	"""n/a"""	2
1551050	2000	1	371	1
1553334	2000	1	605	1
1555587	2000	1	633	1
1557856	2000	1	"""n/a"""	2
1560109	2000	1	354	1
1562393	2000	1	480	1
1564646	2000	1	340	1
1566914	2000	0	"""n/a"""	2
1569183	2000	0	323	1
1571437	2000	1	"""n/a"""	2
1573705	2000	1	789	1
1575958	2000	0	0	1
1578210	2000	1	524	1
1580478	2000	0	"""n/a"""	2
1582731	2000	1	389	1
1584983	2000	1	567	1
1587236	2000	0	"""n/a"""	2
1589488	2000	0	259	1
1591757	2000	1	510	1
1594026	2000	0	"""n/a"""	2
1596278	2000	1	567	1
1598547	2000	1	390	1
1600831	2000	1	"""n/a"""	2
1603084	2000	1	427	1
1605337	2000	1	359	1
1607622	2000	0	"""n/a"""	2
1609890	2000	1	558	1
1612143	2000	1	460	1
1614396	2000	1	729	1
1616681	2000	1	"""n/a"""	2
1618950	2000	1	895	1
1621202	2000	1	995	1
1623455	2000	1	975	1
1625739	2000	0	"""n/a"""	2
1628008	2000	1	594	1
1630261	2000	0	0	1
1632530	2000	0	"""n/a"""	2
1634798	2000	1	798	1
1637051	2000	1	891	1
1639304	2000	1	654	1
1641573	2000	1	482	1
1643857	2000	1	"""n/a"""	2
1646127	2000	1	381	1
1648379	2000	1	553	1
1650647	2000	1	561	1
1652901	2000	1	"""n/a"""	2
1655169	2000	1	572	1
1657422	2000	1	502	1
1659706	2000	1	"""n/a"""	2
1661976	2000	1	608	1
1664228	2000	1	451	1
1666481	2000	1	486	1
1668765	2000	0	"""n/a"""	2
1671018	2000	1	671	1
1673271	2000	1	842	1
1675540	2000	1	653	1
1677809	2000	0	"""n/a"""	2
1680061	2000	1	521	1
1682346	2000	0	"""n/a"""	2
1684614	2000	1	504	1
1686868	2000	0	"""n/a"""	2
1689120	2000	1	516	1
1691389	2000	0	0	1
1693673	2000	1	"""n/a"""	2
1695926	2000	1	644	1
1698179	2000	1	692	1
1700448	2000	0	539	1
1702732	2000	1	"""n/a"""	2
1705002	2000	1	533	1
1707254	2000	1	409	1
1709507	2000	1	499	1
1711791	2000	0	"""n/a"""	2
1714044	2000	1	487	1
1716297	2000	1	414	1
1718581	2000	1	505	1
1720834	2000	1	486	1
1723103	2000	1	"""n/a"""	2
1725373	2000	1	"""n/a"""	2
1727640	2000	1	806	1
1729894	2000	0	"""n/a"""	2
1732146	2000	1	548	1
1734430	2000	0	0	1
1736684	2000	1	"""n/a"""	2
1738952	2000	1	986	1
1741220	2000	0	0	1
1743489	2000	0	0	1
1745743	2000	1	"""n/a"""	2
1747995	2000	1	721	1
1750279	2000	0	0	1
1752533	2000	1	"""n/a"""	2
