onset	duration	ACC	RT	condition
404335	2000	1	426	1
406587	2000	1	"""n/a"""	2
408840	2000	1	483	1
411092	2000	0	356	1
413327	2000	1	366	1
415579	2000	1	"""n/a"""	2
417832	2000	1	568	1
420067	2000	1	408	1
422319	2000	1	"""n/a"""	2
424572	2000	1	651	1
426807	2000	1	759	1
429043	2000	1	468	1
431294	2000	1	689	1
433548	2000	0	"""n/a"""	2
435800	2000	1	723	1
438068	2000	1	644	1
440337	2000	0	"""n/a"""	2
442590	2000	1	459	1
444874	2000	1	467	1
447127	2000	0	0	1
449396	2000	0	"""n/a"""	2
451664	2000	0	"""n/a"""	2
453933	2000	1	545	1
456187	2000	1	"""n/a"""	2
458439	2000	1	540	1
460708	2000	1	757	1
462992	2000	1	438	1
465246	2000	1	"""n/a"""	2
467498	2000	1	934	1
469767	2000	1	519	1
472036	2000	1	381	1
474320	2000	1	"""n/a"""	2
476573	2000	1	804	1
478826	2000	1	734	1
481110	2000	0	"""n/a"""	2
483363	2000	1	326	1
485599	2000	1	435	1
487851	2000	1	428	1
490104	2000	0	"""n/a"""	2
492356	2000	1	377	1
494608	2000	1	820	1
496860	2000	1	601	1
499112	2000	0	"""n/a"""	2
501380	2000	1	540	1
503633	2000	1	430	1
505902	2000	1	"""n/a"""	2
508155	2000	0	336	1
510439	2000	1	427	1
512676	2000	1	454	1
514945	2000	1	667	1
517230	2000	1	"""n/a"""	2
519498	2000	1	425	1
521752	2000	0	"""n/a"""	2
524004	2000	1	544	1
526273	2000	1	424	1
528557	2000	0	"""n/a"""	2
530810	2000	0	637	1
533063	2000	1	914	1
535332	2000	1	458	1
537616	2000	0	"""n/a"""	2
539869	2000	1	429	1
542121	2000	1	"""n/a"""	2
544374	2000	1	674	1
546626	2000	1	405	1
548879	2000	0	"""n/a"""	2
551131	2000	1	391	1
553415	2000	1	"""n/a"""	2
555668	2000	1	852	1
557904	2000	1	464	1
560156	2000	1	276	1
562409	2000	1	"""n/a"""	2
564661	2000	0	545	1
566930	2000	0	0	1
569198	2000	1	"""n/a"""	2
571451	2000	1	792	1
573720	2000	1	576	1
576005	2000	1	458	1
578258	2000	0	392	1
580527	2000	0	"""n/a"""	2
582779	2000	1	774	1
585048	2000	1	921	1
587300	2000	1	414	1
589568	2000	0	"""n/a"""	2
591821	2000	1	294	1
594073	2000	1	433	1
596325	2000	1	705	1
598594	2000	1	"""n/a"""	2
600847	2000	1	583	1
603115	2000	1	473	1
605384	2000	0	"""n/a"""	2
607652	2000	1	864	1
609921	2000	1	478	1
612158	2000	1	558	1
614443	2000	0	"""n/a"""	2
616679	2000	1	533	1
618931	2000	1	520	1
621184	2000	1	"""n/a"""	2
623451	2000	1	"""n/a"""	2
625704	2000	1	510	1
627940	2000	1	542	1
630192	2000	1	"""n/a"""	2
632445	2000	0	458	1
634697	2000	1	560	1
636932	2000	1	515	1
639184	2000	0	"""n/a"""	2
641420	2000	1	542	1
643656	2000	1	513	1
645891	2000	1	464	1
648143	2000	0	"""n/a"""	2
650379	2000	1	605	1
652614	2000	1	768	1
654850	2000	1	956	1
657101	2000	1	"""n/a"""	2
659355	2000	0	558	1
661623	2000	1	509	1
663876	2000	0	0	1
666160	2000	0	0	1
668413	2000	1	"""n/a"""	2
670666	2000	1	868	1
672951	2000	0	"""n/a"""	2
733778	2000	1	796	1
736031	2000	1	368	1
738300	2000	1	"""n/a"""	2
740552	2000	1	396	1
742804	2000	1	324	1
745056	2000	1	240	1
747309	2000	0	"""n/a"""	2
749561	2000	1	569	1
751830	2000	1	393	1
754098	2000	1	351	1
756350	2000	0	"""n/a"""	2
758603	2000	1	624	1
760856	2000	1	"""n/a"""	2
763107	2000	1	412	1
765375	2000	0	"""n/a"""	2
767644	2000	1	625	1
769881	2000	1	725	1
772166	2000	1	835	1
774434	2000	1	"""n/a"""	2
776687	2000	1	501	1
778940	2000	1	681	1
781209	2000	1	456	1
783493	2000	0	"""n/a"""	2
785730	2000	1	647	1
787999	2000	1	739	1
790268	2000	1	751	1
792552	2000	0	"""n/a"""	2
794821	2000	1	594	1
797058	2000	1	568	1
799326	2000	0	"""n/a"""	2
801579	2000	1	550	1
803831	2000	1	879	1
806083	2000	0	659	1
808351	2000	1	"""n/a"""	2
810604	2000	1	534	1
812857	2000	1	747	1
815142	2000	0	"""n/a"""	2
817410	2000	1	"""n/a"""	2
819663	2000	1	747	1
821932	2000	0	"""n/a"""	2
824185	2000	1	729	1
826454	2000	1	601	1
828722	2000	0	0	1
830958	2000	1	535	1
833211	2000	0	"""n/a"""	2
835446	2000	1	337	1
837731	2000	1	552	1
840000	2000	1	"""n/a"""	2
842268	2000	1	627	1
844521	2000	1	558	1
846790	2000	0	"""n/a"""	2
849043	2000	0	615	1
851312	2000	1	677	1
853564	2000	1	775	1
855849	2000	1	"""n/a"""	2
858101	2000	1	733	1
860354	2000	1	764	1
862623	2000	1	703	1
864907	2000	1	795	1
867161	2000	0	"""n/a"""	2
869413	2000	1	864	1
871697	2000	0	"""n/a"""	2
873934	2000	0	0	1
876187	2000	1	"""n/a"""	2
878438	2000	1	445	1
880691	2000	1	523	1
882960	2000	1	946	1
885228	2000	0	"""n/a"""	2
887481	2000	1	760	1
889750	2000	1	920	1
892034	2000	0	"""n/a"""	2
894287	2000	1	800	1
896540	2000	1	700	1
898824	2000	1	"""n/a"""	2
901093	2000	1	427	1
903346	2000	1	666	1
905599	2000	1	675	1
907884	2000	1	572	1
910152	2000	1	"""n/a"""	2
912405	2000	1	716	1
914658	2000	0	384	1
916927	2000	1	318	1
919195	2000	0	"""n/a"""	2
921448	2000	1	590	1
923717	2000	1	521	1
925986	2000	0	660	1
928254	2000	0	"""n/a"""	2
930507	2000	1	752	1
932776	2000	1	465	1
935045	2000	0	0	1
937313	2000	0	"""n/a"""	2
939566	2000	1	554	1
941818	2000	0	989	1
944070	2000	1	459	1
946323	2000	1	"""n/a"""	2
948575	2000	1	715	1
950827	2000	1	717	1
953080	2000	0	"""n/a"""	2
955332	2000	0	"""n/a"""	2
957567	2000	1	714	1
959835	2000	0	"""n/a"""	2
962088	2000	1	414	1
964340	2000	1	542	1
966608	2000	1	"""n/a"""	2
968877	2000	1	485	1
971114	2000	1	460	1
973383	2000	1	887	1
975667	2000	1	"""n/a"""	2
977936	2000	0	0	1
980189	2000	1	472	1
982458	2000	1	"""n/a"""	2
984726	2000	1	971	1
986979	2000	1	577	1
989232	2000	1	317	1
991500	2000	1	"""n/a"""	2
993753	2000	0	425	1
996005	2000	1	484	1
998257	2000	1	638	1
1000493	2000	1	468	1
1002761	2000	1	"""n/a"""	2
1047773	2000	1	679	1
1050025	2000	1	460	1
1052293	2000	0	"""n/a"""	2
1054546	2000	1	456	1
1056799	2000	1	561	1
1059083	2000	1	367	1
1061337	2000	0	"""n/a"""	2
1063572	2000	1	954	1
1065824	2000	1	450	1
1068092	2000	1	516	1
1070345	2000	1	427	1
1072614	2000	0	"""n/a"""	2
1074882	2000	1	626	1
1077135	2000	1	414	1
1079388	2000	1	595	1
1081673	2000	0	"""n/a"""	2
1083909	2000	1	600	1
1086178	2000	0	0	1
1088447	2000	1	643	1
1090699	2000	1	727	1
1092967	2000	0	"""n/a"""	2
1095221	2000	1	"""n/a"""	2
1097472	2000	1	568	1
1099725	2000	0	0	1
1101993	2000	1	817	1
1104262	2000	1	"""n/a"""	2
1106515	2000	1	634	1
1108799	2000	1	781	1
1111053	2000	0	"""n/a"""	2
1113305	2000	1	603	1
1115589	2000	1	526	1
1117842	2000	1	"""n/a"""	2
1120095	2000	1	434	1
1122380	2000	1	"""n/a"""	2
1124633	2000	1	442	1
1126901	2000	1	"""n/a"""	2
1129154	2000	1	461	1
1131423	2000	1	654	1
1133707	2000	0	"""n/a"""	2
1135977	2000	1	441	1
1138229	2000	1	410	1
1140498	2000	0	"""n/a"""	2
1142751	2000	0	468	1
1145019	2000	1	608	1
1147272	2000	0	0	1
1149557	2000	1	"""n/a"""	2
1151826	2000	1	376	1
1154079	2000	0	"""n/a"""	2
1156331	2000	1	730	1
1158615	2000	1	703	1
1160868	2000	0	680	1
1163137	2000	0	"""n/a"""	2
1165390	2000	1	362	1
1167659	2000	0	750	1
1169943	2000	1	772	1
1172197	2000	0	"""n/a"""	2
1174449	2000	1	923	1
1176718	2000	1	502	1
1178987	2000	0	415	1
1181256	2000	0	"""n/a"""	2
1183524	2000	0	"""n/a"""	2
1185792	2000	1	948	1
1188029	2000	1	487	1
1190298	2000	1	515	1
1192583	2000	1	"""n/a"""	2
1194836	2000	1	467	1
1197120	2000	1	785	1
1199374	2000	1	"""n/a"""	2
1201642	2000	1	773	1
1203878	2000	0	449	1
1206131	2000	0	"""n/a"""	2
1208382	2000	1	456	1
1210651	2000	0	"""n/a"""	2
1212919	2000	1	500	1
1215172	2000	1	479	1
1217425	2000	0	356	1
1219694	2000	1	444	1
1221979	2000	1	"""n/a"""	2
1224232	2000	1	550	1
1226484	2000	1	334	1
1228769	2000	1	"""n/a"""	2
1231022	2000	1	471	1
1233290	2000	1	560	1
1235559	2000	1	"""n/a"""	2
1237812	2000	1	647	1
1240064	2000	1	457	1
1242333	2000	1	880	1
1244618	2000	1	"""n/a"""	2
1246887	2000	1	468	1
1249155	2000	1	605	1
1251392	2000	0	473	1
1253677	2000	0	"""n/a"""	2
1255945	2000	1	734	1
1258199	2000	1	"""n/a"""	2
1260467	2000	1	689	1
1262720	2000	1	655	1
1264989	2000	1	441	1
1267258	2000	0	"""n/a"""	2
1269510	2000	0	688	1
1271778	2000	1	753	1
1274031	2000	1	395	1
1276300	2000	1	742	1
1278569	2000	0	"""n/a"""	2
1280821	2000	1	483	1
1283090	2000	0	365	1
1285374	2000	1	"""n/a"""	2
1287627	2000	1	610	1
1289896	2000	0	"""n/a"""	2
1292149	2000	1	504	1
1294418	2000	1	457	1
1296702	2000	1	645	1
1298956	2000	1	"""n/a"""	2
1301208	2000	1	469	1
1303477	2000	1	648	1
1305745	2000	1	482	1
1308014	2000	1	"""n/a"""	2
1310283	2000	0	0	1
1312535	2000	1	486	1
1314788	2000	1	322	1
1317056	2000	0	"""n/a"""	2
