onset	duration	ACC	RT	condition
277233	2000	0	0	1
279485	2000	1	549	1
281737	2000	1	560	1
284006	2000	0	"""n/a"""	2
286259	2000	1	508	1
288511	2000	1	391	1
290747	2000	1	"""n/a"""	2
292999	2000	1	543	1
295283	2000	1	"""n/a"""	2
297537	2000	1	679	1
299821	2000	1	528	1
302074	2000	1	783	1
304343	2000	0	"""n/a"""	2
306611	2000	1	730	1
308880	2000	1	486	1
311133	2000	1	"""n/a"""	2
313386	2000	1	734	1
315622	2000	0	"""n/a"""	2
317857	2000	1	557	1
320092	2000	1	520	1
322328	2000	1	345	1
324564	2000	0	"""n/a"""	2
326799	2000	1	673	1
329035	2000	0	"""n/a"""	2
331270	2000	1	536	1
333506	2000	1	677	1
335774	2000	1	"""n/a"""	2
338027	2000	1	588	1
340262	2000	0	0	1
342498	2000	0	0	1
344733	2000	1	496	1
346985	2000	1	"""n/a"""	2
349254	2000	1	"""n/a"""	2
351507	2000	1	818	1
353742	2000	1	498	1
355978	2000	1	362	1
358214	2000	0	"""n/a"""	2
360449	2000	1	539	1
362701	2000	0	258	1
364954	2000	1	"""n/a"""	2
367206	2000	1	643	1
369475	2000	1	447	1
371759	2000	1	709	1
374013	2000	0	"""n/a"""	2
376265	2000	1	435	1
378549	2000	1	545	1
380802	2000	1	382	1
383071	2000	1	"""n/a"""	2
385324	2000	1	454	1
387592	2000	1	272	1
389845	2000	1	639	1
392130	2000	0	"""n/a"""	2
394383	2000	1	598	1
396651	2000	1	616	1
398904	2000	0	0	1
401156	2000	1	849	1
403409	2000	1	"""n/a"""	2
405677	2000	1	420	1
407929	2000	1	672	1
410197	2000	1	"""n/a"""	2
412451	2000	1	561	1
414719	2000	0	641	1
416972	2000	1	712	1
419256	2000	0	"""n/a"""	2
421509	2000	1	476	1
423762	2000	1	508	1
426047	2000	1	413	1
428300	2000	1	707	1
430569	2000	0	"""n/a"""	2
432821	2000	1	552	1
435106	2000	0	"""n/a"""	2
437374	2000	1	611	1
439627	2000	0	0	1
441863	2000	1	422	1
444148	2000	0	"""n/a"""	2
446401	2000	1	585	1
448653	2000	1	636	1
450905	2000	1	516	1
453174	2000	1	"""n/a"""	2
455443	2000	1	686	1
457695	2000	1	536	1
459964	2000	0	"""n/a"""	2
462217	2000	1	692	1
464501	2000	0	"""n/a"""	2
466754	2000	0	0	1
469007	2000	1	813	1
471276	2000	0	0	1
473560	2000	1	"""n/a"""	2
475813	2000	1	766	1
478066	2000	1	523	1
480335	2000	1	737	1
482619	2000	0	"""n/a"""	2
484872	2000	0	0	1
487140	2000	1	675	1
489409	2000	1	477	1
491662	2000	1	400	1
493931	2000	0	"""n/a"""	2
496184	2000	1	577	1
498468	2000	1	662	1
500722	2000	0	"""n/a"""	2
502990	2000	0	"""n/a"""	2
505258	2000	0	0	1
507495	2000	1	732	1
509731	2000	1	"""n/a"""	2
511983	2000	1	742	1
514219	2000	1	"""n/a"""	2
516470	2000	1	783	1
518706	2000	1	654	1
520957	2000	1	"""n/a"""	2
523210	2000	1	410	1
525446	2000	1	773	1
527682	2000	1	613	1
529950	2000	1	"""n/a"""	2
532203	2000	1	711	1
534438	2000	1	579	1
536690	2000	0	"""n/a"""	2
538926	2000	1	500	1
541162	2000	1	565	1
543397	2000	0	604	1
545649	2000	0	"""n/a"""	2
580768	2000	1	778	1
583020	2000	1	546	1
585255	2000	1	462	1
587507	2000	1	"""n/a"""	2
589760	2000	1	339	1
591996	2000	1	"""n/a"""	2
594248	2000	1	230	1
596517	2000	1	345	1
598785	2000	1	701	1
601038	2000	1	304	1
603322	2000	0	"""n/a"""	2
605591	2000	0	539	1
607844	2000	1	793	1
610113	2000	1	"""n/a"""	2
612366	2000	1	534	1
614635	2000	1	408	1
616903	2000	1	377	1
619172	2000	0	"""n/a"""	2
621440	2000	1	427	1
623709	2000	1	815	1
625963	2000	1	"""n/a"""	2
628215	2000	1	871	1
630484	2000	1	514	1
632768	2000	0	"""n/a"""	2
635021	2000	1	683	1
637274	2000	1	405	1
639543	2000	1	682	1
641827	2000	1	693	1
644096	2000	1	"""n/a"""	2
646349	2000	1	419	1
648602	2000	1	542	1
650886	2000	0	"""n/a"""	2
653139	2000	1	712	1
655392	2000	0	0	1
657676	2000	0	0	1
659930	2000	0	"""n/a"""	2
662182	2000	1	923	1
664467	2000	0	"""n/a"""	2
666735	2000	1	514	1
668988	2000	1	667	1
671241	2000	1	724	1
673525	2000	0	"""n/a"""	2
675794	2000	1	548	1
678063	2000	1	708	1
680316	2000	1	651	1
682585	2000	0	"""n/a"""	2
684838	2000	1	576	1
687122	2000	1	520	1
689375	2000	1	564	1
691644	2000	0	"""n/a"""	2
693912	2000	1	"""n/a"""	2
696182	2000	1	657	1
698435	2000	1	"""n/a"""	2
700687	2000	1	850	1
702956	2000	1	552	1
705240	2000	1	"""n/a"""	2
707510	2000	0	460	1
709762	2000	1	530	1
712015	2000	1	400	1
714299	2000	1	"""n/a"""	2
716552	2000	1	549	1
718805	2000	1	681	1
721089	2000	1	514	1
723342	2000	1	563	1
725611	2000	1	"""n/a"""	2
727864	2000	1	421	1
730133	2000	1	695	1
732417	2000	1	502	1
734686	2000	1	548	1
736940	2000	0	"""n/a"""	2
739192	2000	1	601	1
741476	2000	1	590	1
743729	2000	0	468	1
745998	2000	0	"""n/a"""	2
748266	2000	1	637	1
750519	2000	1	756	1
752772	2000	0	884	1
755057	2000	0	"""n/a"""	2
757310	2000	1	474	1
759578	2000	1	825	1
761847	2000	1	"""n/a"""	2
764100	2000	1	831	1
766384	2000	1	730	1
768638	2000	1	"""n/a"""	2
770890	2000	0	888	1
773174	2000	1	"""n/a"""	2
775443	2000	1	720	1
777697	2000	0	"""n/a"""	2
779949	2000	1	613	1
782218	2000	1	435	1
784487	2000	1	513	1
786756	2000	0	"""n/a"""	2
789008	2000	1	591	1
791277	2000	0	399	1
793561	2000	1	615	1
795815	2000	1	"""n/a"""	2
798067	2000	1	532	1
800351	2000	0	0	1
802620	2000	1	695	1
804874	2000	0	"""n/a"""	2
807142	2000	0	"""n/a"""	2
809410	2000	1	628	1
811663	2000	1	563	1
813932	2000	1	"""n/a"""	2
816185	2000	1	746	1
818469	2000	1	739	1
820722	2000	1	651	1
822991	2000	1	"""n/a"""	2
825259	2000	1	437	1
827528	2000	1	461	1
829782	2000	0	"""n/a"""	2
832034	2000	1	644	1
834318	2000	1	"""n/a"""	2
836588	2000	1	649	1
838840	2000	1	598	1
841108	2000	0	"""n/a"""	2
843377	2000	0	0	1
845630	2000	1	692	1
847883	2000	0	0	1
850167	2000	1	"""n/a"""	2
906908	2000	0	0	1
909160	2000	1	632	1
911412	2000	1	483	1
913665	2000	1	438	1
915949	2000	1	"""n/a"""	2
918202	2000	1	463	1
920455	2000	1	524	1
922724	2000	1	436	1
925008	2000	1	"""n/a"""	2
927261	2000	1	638	1
929530	2000	0	"""n/a"""	2
931783	2000	1	519	1
934067	2000	1	510	1
936321	2000	1	"""n/a"""	2
938589	2000	1	"""n/a"""	2
940842	2000	1	779	1
943126	2000	1	520	1
945380	2000	0	"""n/a"""	2
947632	2000	1	580	1
949901	2000	1	684	1
952185	2000	1	864	1
954439	2000	1	"""n/a"""	2
956691	2000	0	0	1
958975	2000	0	"""n/a"""	2
961244	2000	1	530	1
963497	2000	1	655	1
965750	2000	1	750	1
968034	2000	0	"""n/a"""	2
970303	2000	1	741	1
972556	2000	1	801	1
974809	2000	1	557	1
977093	2000	1	"""n/a"""	2
979363	2000	1	598	1
981616	2000	0	"""n/a"""	2
983868	2000	1	568	1
986152	2000	1	650	1
988405	2000	1	576	1
990674	2000	1	"""n/a"""	2
992943	2000	1	648	1
995211	2000	1	487	1
997464	2000	0	404	1
999733	2000	0	"""n/a"""	2
1001986	2000	0	0	1
1004270	2000	1	794	1
1006523	2000	0	0	1
1008792	2000	0	"""n/a"""	2
1011045	2000	0	0	1
1013329	2000	1	564	1
1015583	2000	1	"""n/a"""	2
1017835	2000	1	752	1
1020104	2000	1	674	1
1022388	2000	0	"""n/a"""	2
1024658	2000	1	753	1
1026910	2000	1	599	1
1029178	2000	0	"""n/a"""	2
1031447	2000	1	696	1
1033700	2000	0	806	1
1035953	2000	1	682	1
1038237	2000	0	0	1
1040506	2000	0	"""n/a"""	2
1042759	2000	1	544	1
1045012	2000	1	721	1
1047296	2000	1	577	1
1049565	2000	1	"""n/a"""	2
1051835	2000	1	459	1
1054087	2000	1	750	1
1056355	2000	0	"""n/a"""	2
1058608	2000	0	0	1
1060861	2000	1	458	1
1063130	2000	0	495	1
1065414	2000	0	"""n/a"""	2
1067668	2000	1	574	1
1069936	2000	1	862	1
1072189	2000	1	759	1
1074473	2000	1	499	1
1076727	2000	1	"""n/a"""	2
1078995	2000	1	571	1
1081248	2000	1	595	1
1083532	2000	0	0	1
1085786	2000	0	"""n/a"""	2
1088038	2000	1	576	1
1090307	2000	1	833	1
1092591	2000	1	888	1
1094845	2000	0	"""n/a"""	2
1097097	2000	1	727	1
1099366	2000	1	496	1
1101650	2000	0	"""n/a"""	2
1103920	2000	0	454	1
1106172	2000	1	661	1
1108440	2000	1	"""n/a"""	2
1110710	2000	1	440	1
1112962	2000	1	423	1
1115215	2000	1	736	1
1117499	2000	1	"""n/a"""	2
1119768	2000	1	530	1
1122022	2000	0	"""n/a"""	2
1124290	2000	0	"""n/a"""	2
1126558	2000	1	533	1
1128811	2000	1	658	1
1131064	2000	1	505	1
1133349	2000	1	"""n/a"""	2
1135618	2000	1	400	1
1137870	2000	1	479	1
1140123	2000	1	641	1
1142408	2000	1	"""n/a"""	2
1144676	2000	1	444	1
1146929	2000	1	591	1
1149198	2000	1	"""n/a"""	2
1151451	2000	0	399	1
1153735	2000	1	486	1
1155988	2000	1	661	1
1158241	2000	1	547	1
1160525	2000	1	"""n/a"""	2
1162795	2000	1	682	1
1165048	2000	0	"""n/a"""	2
1167300	2000	1	635	1
1169569	2000	1	833	1
1171853	2000	0	"""n/a"""	2
1174106	2000	1	753	1
1176375	2000	1	"""n/a"""	2
