onset	duration	ACC	RT	condition
283220	2000	1	702	1
285473	2000	1	380	1
287725	2000	1	375	1
289960	2000	0	371	1
292212	2000	1	"""n/a"""	2
294465	2000	1	467	1
296700	2000	1	391	1
298952	2000	0	"""n/a"""	2
301205	2000	1	799	1
303440	2000	1	558	1
305676	2000	1	580	1
307912	2000	0	"""n/a"""	2
310164	2000	1	812	1
312416	2000	1	753	1
314668	2000	0	0	1
316921	2000	0	"""n/a"""	2
319173	2000	1	666	1
321457	2000	1	752	1
323711	2000	0	"""n/a"""	2
325963	2000	1	546	1
328215	2000	1	435	1
330468	2000	0	"""n/a"""	2
332719	2000	1	484	1
334971	2000	1	566	1
337224	2000	0	0	1
339460	2000	0	"""n/a"""	2
341712	2000	1	782	1
343996	2000	0	0	1
346233	2000	0	0	1
348501	2000	0	"""n/a"""	2
350754	2000	1	648	1
353006	2000	1	480	1
355259	2000	0	"""n/a"""	2
357511	2000	0	0	1
359763	2000	1	892	1
362015	2000	1	618	1
364268	2000	1	"""n/a"""	2
366520	2000	1	753	1
368789	2000	1	774	1
371057	2000	1	968	1
373310	2000	1	789	1
375594	2000	0	"""n/a"""	2
377847	2000	1	724	1
380116	2000	0	"""n/a"""	2
382369	2000	1	618	1
384638	2000	1	516	1
386922	2000	1	744	1
389176	2000	0	"""n/a"""	2
391428	2000	0	0	1
393697	2000	1	728	1
395981	2000	0	"""n/a"""	2
398235	2000	1	"""n/a"""	2
400487	2000	1	837	1
402771	2000	1	922	1
405024	2000	0	0	1
407293	2000	1	"""n/a"""	2
409546	2000	1	645	1
411830	2000	0	"""n/a"""	2
414083	2000	1	816	1
416352	2000	0	"""n/a"""	2
418605	2000	0	0	1
420889	2000	0	0	1
423142	2000	1	485	1
425411	2000	1	"""n/a"""	2
427680	2000	1	773	1
429948	2000	0	0	1
432201	2000	0	"""n/a"""	2
434454	2000	1	604	1
436723	2000	1	694	1
438992	2000	0	"""n/a"""	2
441244	2000	1	970	1
443513	2000	0	0	1
445798	2000	0	"""n/a"""	2
448066	2000	1	620	1
450319	2000	1	815	1
452572	2000	0	0	1
454808	2000	0	"""n/a"""	2
457043	2000	1	718	1
459278	2000	1	691	1
461514	2000	1	828	1
463750	2000	0	"""n/a"""	2
465985	2000	1	750	1
468221	2000	1	751	1
470456	2000	0	0	1
472692	2000	1	763	1
474928	2000	0	"""n/a"""	2
477163	2000	1	788	1
479398	2000	1	756	1
481634	2000	0	0	1
483870	2000	0	"""n/a"""	2
486137	2000	0	0	1
488374	2000	1	758	1
490643	2000	0	0	1
492895	2000	0	0	1
495163	2000	1	"""n/a"""	2
497416	2000	0	0	1
499667	2000	1	"""n/a"""	2
501937	2000	1	668	1
504189	2000	1	649	1
506458	2000	1	"""n/a"""	2
508711	2000	1	834	1
510980	2000	1	697	1
513248	2000	1	818	1
515517	2000	1	"""n/a"""	2
517770	2000	0	0	1
520054	2000	1	927	1
522307	2000	0	0	1
524559	2000	1	"""n/a"""	2
526812	2000	0	0	1
529047	2000	1	743	1
531300	2000	1	782	1
533585	2000	0	"""n/a"""	2
535821	2000	0	0	1
538057	2000	0	"""n/a"""	2
540309	2000	0	0	1
542593	2000	0	"""n/a"""	2
544847	2000	1	"""n/a"""	2
547099	2000	1	933	1
549368	2000	1	940	1
551652	2000	1	"""n/a"""	2
668536	2000	1	698	1
670788	2000	1	914	1
673056	2000	0	"""n/a"""	2
675309	2000	1	621	1
677561	2000	1	503	1
679830	2000	1	"""n/a"""	2
682098	2000	0	0	1
684335	2000	0	0	1
686587	2000	1	779	1
688840	2000	1	"""n/a"""	2
691107	2000	1	739	1
693360	2000	1	822	1
695613	2000	1	746	1
697897	2000	1	"""n/a"""	2
700166	2000	1	672	1
702419	2000	1	649	1
704672	2000	1	769	1
706956	2000	1	"""n/a"""	2
709209	2000	1	632	1
711462	2000	1	711	1
713747	2000	1	"""n/a"""	2
716000	2000	1	651	1
718284	2000	1	"""n/a"""	2
720537	2000	1	924	1
722790	2000	1	622	1
725059	2000	1	489	1
727343	2000	0	"""n/a"""	2
729612	2000	0	0	1
731849	2000	0	0	1
734133	2000	0	0	1
736386	2000	0	"""n/a"""	2
738639	2000	0	869	1
740923	2000	0	"""n/a"""	2
743176	2000	0	0	1
745429	2000	0	0	1
747681	2000	1	692	1
749933	2000	0	0	1
752186	2000	0	"""n/a"""	2
754438	2000	1	929	1
756722	2000	0	0	1
758959	2000	0	0	1
761227	2000	0	"""n/a"""	2
763480	2000	0	0	1
765732	2000	0	0	1
767984	2000	0	0	1
770236	2000	0	"""n/a"""	2
772505	2000	1	"""n/a"""	2
774758	2000	0	0	1
776993	2000	1	705	1
779246	2000	1	492	1
781514	2000	1	554	1
783783	2000	1	"""n/a"""	2
786036	2000	1	534	1
788305	2000	1	741	1
790589	2000	0	"""n/a"""	2
792842	2000	1	540	1
795095	2000	1	874	1
797380	2000	0	"""n/a"""	2
799648	2000	0	0	1
801901	2000	0	"""n/a"""	2
804170	2000	0	"""n/a"""	2
806423	2000	1	700	1
808707	2000	1	860	1
810961	2000	0	"""n/a"""	2
813228	2000	1	578	1
815497	2000	1	658	1
817750	2000	1	676	1
820019	2000	1	"""n/a"""	2
822272	2000	0	0	1
824556	2000	0	"""n/a"""	2
826825	2000	1	786	1
829078	2000	0	0	1
831347	2000	1	"""n/a"""	2
833615	2000	0	0	1
835884	2000	0	0	1
838138	2000	0	"""n/a"""	2
840390	2000	1	901	1
842659	2000	0	0	1
844927	2000	0	"""n/a"""	2
847180	2000	1	848	1
849432	2000	0	0	1
851684	2000	1	732	1
853937	2000	1	"""n/a"""	2
856204	2000	0	830	1
858457	2000	0	0	1
860710	2000	1	894	1
862994	2000	0	"""n/a"""	2
865263	2000	1	737	1
867516	2000	1	548	1
869769	2000	1	775	1
872038	2000	0	0	1
874322	2000	0	"""n/a"""	2
876591	2000	1	883	1
878844	2000	1	864	1
881097	2000	1	969	1
883381	2000	1	"""n/a"""	2
885650	2000	1	843	1
887903	2000	0	0	1
890156	2000	1	931	1
892440	2000	1	"""n/a"""	2
894693	2000	0	0	1
896962	2000	0	"""n/a"""	2
899215	2000	0	0	1
901499	2000	0	0	1
903736	2000	0	0	1
906004	2000	0	"""n/a"""	2
908257	2000	0	537	1
910509	2000	1	423	1
912761	2000	1	555	1
915029	2000	1	"""n/a"""	2
917298	2000	0	0	1
919551	2000	1	971	1
921820	2000	0	"""n/a"""	2
924073	2000	0	0	1
926357	2000	1	"""n/a"""	2
928627	2000	1	795	1
930879	2000	0	0	1
933147	2000	0	0	1
935384	2000	0	0	1
937652	2000	0	"""n/a"""	2
1026708	2000	1	467	1
1028992	2000	1	892	1
1031261	2000	1	304	1
1033515	2000	1	"""n/a"""	2
1035767	2000	1	311	1
1038051	2000	1	225	1
1040304	2000	0	385	1
1042573	2000	1	"""n/a"""	2
1044841	2000	1	648	1
1047110	2000	1	"""n/a"""	2
1049363	2000	0	0	1
1051616	2000	1	669	1
1053900	2000	1	"""n/a"""	2
1056153	2000	1	703	1
1058422	2000	1	"""n/a"""	2
1060675	2000	1	705	1
1062959	2000	0	346	1
1065213	2000	1	"""n/a"""	2
1067481	2000	1	873	1
1069749	2000	1	849	1
1072018	2000	1	826	1
1074272	2000	0	"""n/a"""	2
1076524	2000	1	582	1
1078808	2000	1	803	1
1081077	2000	1	964	1
1083331	2000	1	"""n/a"""	2
1085583	2000	1	757	1
1087867	2000	1	736	1
1090136	2000	1	"""n/a"""	2
1092389	2000	1	934	1
1094642	2000	1	894	1
1096926	2000	1	"""n/a"""	2
1099179	2000	1	970	1
1101432	2000	1	800	1
1103717	2000	1	498	1
1105985	2000	1	"""n/a"""	2
1108238	2000	1	723	1
1110491	2000	1	661	1
1112775	2000	1	731	1
1115044	2000	0	"""n/a"""	2
1117297	2000	1	896	1
1119550	2000	1	750	1
1121834	2000	1	"""n/a"""	2
1124103	2000	0	897	1
1126357	2000	1	"""n/a"""	2
1128609	2000	1	466	1
1130893	2000	1	282	1
1133146	2000	1	422	1
1135399	2000	1	619	1
1137684	2000	1	"""n/a"""	2
1139952	2000	1	"""n/a"""	2
1142205	2000	0	0	1
1144458	2000	1	716	1
1146743	2000	1	598	1
1149011	2000	1	"""n/a"""	2
1151281	2000	1	653	1
1153533	2000	1	583	1
1155801	2000	1	642	1
1158070	2000	1	762	1
1160324	2000	1	"""n/a"""	2
1162576	2000	0	629	1
1164860	2000	1	"""n/a"""	2
1167113	2000	1	490	1
1169366	2000	1	547	1
1171635	2000	1	569	1
1173919	2000	0	"""n/a"""	2
1176172	2000	1	668	1
1178425	2000	1	622	1
1180694	2000	1	500	1
1182978	2000	0	"""n/a"""	2
1185232	2000	1	578	1
1187500	2000	1	402	1
1189753	2000	0	607	1
1192037	2000	1	"""n/a"""	2
1194290	2000	1	641	1
1196543	2000	0	0	1
1198827	2000	1	890	1
1201096	2000	1	"""n/a"""	2
1203349	2000	0	0	1
1205602	2000	1	334	1
1207886	2000	1	"""n/a"""	2
1210139	2000	1	903	1
1212392	2000	1	304	1
1214677	2000	0	"""n/a"""	2
1216945	2000	1	604	1
1219198	2000	0	431	1
1221451	2000	1	684	1
1223736	2000	0	"""n/a"""	2
1226004	2000	1	438	1
1228258	2000	1	"""n/a"""	2
1230526	2000	1	498	1
1232794	2000	1	637	1
1235063	2000	0	"""n/a"""	2
1237316	2000	1	742	1
1239569	2000	1	820	1
1241853	2000	1	561	1
1244122	2000	0	"""n/a"""	2
1246375	2000	1	737	1
1248628	2000	0	572	1
1250912	2000	1	692	1
1253181	2000	0	0	1
1255435	2000	1	"""n/a"""	2
1257703	2000	1	589	1
1259971	2000	1	583	1
1262225	2000	0	"""n/a"""	2
1264477	2000	1	929	1
1266762	2000	1	430	1
1269030	2000	1	430	1
1271283	2000	1	526	1
1273552	2000	1	"""n/a"""	2
1275821	2000	1	968	1
1278089	2000	0	"""n/a"""	2
1280343	2000	0	"""n/a"""	2
1282595	2000	1	524	1
1284879	2000	1	918	1
1287148	2000	1	573	1
1289402	2000	1	"""n/a"""	2
1291670	2000	1	463	1
1293938	2000	1	775	1
1296192	2000	0	"""n/a"""	2
