onset	duration	ACC	RT	condition
260225	2000	0	0	1
262460	2000	1	557	1
264696	2000	1	450	1
266932	2000	1	"""n/a"""	2
269184	2000	1	517	1
271452	2000	1	517	1
273721	2000	0	"""n/a"""	2
275989	2000	0	"""n/a"""	2
278242	2000	1	538	1
280495	2000	1	800	1
282747	2000	1	892	1
285000	2000	0	"""n/a"""	2
287251	2000	1	602	1
289504	2000	1	626	1
291788	2000	0	"""n/a"""	2
294041	2000	1	771	1
296294	2000	1	620	1
298563	2000	1	820	1
300847	2000	0	"""n/a"""	2
303100	2000	1	376	1
305353	2000	1	396	1
307637	2000	1	"""n/a"""	2
309906	2000	1	691	1
312159	2000	1	627	1
314428	2000	1	"""n/a"""	2
316681	2000	1	823	1
318965	2000	0	0	1
321202	2000	1	957	1
323470	2000	0	"""n/a"""	2
325723	2000	1	460	1
327976	2000	0	"""n/a"""	2
330243	2000	1	409	1
332497	2000	0	"""n/a"""	2
334749	2000	1	373	1
337033	2000	1	671	1
339286	2000	1	885	1
341555	2000	0	"""n/a"""	2
343808	2000	1	467	1
346092	2000	1	591	1
348345	2000	1	741	1
350614	2000	0	"""n/a"""	2
352867	2000	1	454	1
355151	2000	1	"""n/a"""	2
357404	2000	0	0	1
359657	2000	0	0	1
361909	2000	0	0	1
364161	2000	0	0	1
366414	2000	0	"""n/a"""	2
368666	2000	1	748	1
370950	2000	1	914	1
373204	2000	0	"""n/a"""	2
375456	2000	1	621	1
377725	2000	1	761	1
380009	2000	1	895	1
382278	2000	1	907	1
384532	2000	0	"""n/a"""	2
386784	2000	1	750	1
389068	2000	1	708	1
391321	2000	1	996	1
393590	2000	0	"""n/a"""	2
395858	2000	1	"""n/a"""	2
398111	2000	0	0	1
400347	2000	1	939	1
402598	2000	0	"""n/a"""	2
404835	2000	1	716	1
407070	2000	1	910	1
409322	2000	0	"""n/a"""	2
411558	2000	1	792	1
413810	2000	0	"""n/a"""	2
416046	2000	1	674	1
418282	2000	0	0	1
420534	2000	0	0	1
422770	2000	0	"""n/a"""	2
425005	2000	1	601	1
427240	2000	1	761	1
429476	2000	1	944	1
431712	2000	0	"""n/a"""	2
433947	2000	1	662	1
436199	2000	1	772	1
438451	2000	1	868	1
440720	2000	0	"""n/a"""	2
442973	2000	1	607	1
445257	2000	1	"""n/a"""	2
447526	2000	0	0	1
449763	2000	1	983	1
452032	2000	0	0	1
454284	2000	0	0	1
456552	2000	0	"""n/a"""	2
458805	2000	0	0	1
461056	2000	1	778	1
463310	2000	1	"""n/a"""	2
465562	2000	1	928	1
467831	2000	0	0	1
470099	2000	0	"""n/a"""	2
472352	2000	1	817	1
474637	2000	1	"""n/a"""	2
476905	2000	0	0	1
479142	2000	0	0	1
481394	2000	0	0	1
483662	2000	0	"""n/a"""	2
485915	2000	1	749	1
488167	2000	1	708	1
490420	2000	1	907	1
492704	2000	0	"""n/a"""	2
494973	2000	1	884	1
497226	2000	1	792	1
499479	2000	1	829	1
501763	2000	0	"""n/a"""	2
504032	2000	1	632	1
506285	2000	1	565	1
508538	2000	1	709	1
510807	2000	0	0	1
513091	2000	0	"""n/a"""	2
515344	2000	1	667	1
517597	2000	0	0	1
519882	2000	1	"""n/a"""	2
522150	2000	0	0	1
524387	2000	1	996	1
526656	2000	1	796	1
528941	2000	1	"""n/a"""	2
707685	2000	0	0	1
709921	2000	1	936	1
712156	2000	1	773	1
714425	2000	1	"""n/a"""	2
716678	2000	1	679	1
718947	2000	1	747	1
721231	2000	1	"""n/a"""	2
723484	2000	1	749	1
725737	2000	1	903	1
728021	2000	0	0	1
730274	2000	0	0	1
732526	2000	0	"""n/a"""	2
734779	2000	1	464	1
737031	2000	1	573	1
739283	2000	1	804	1
741535	2000	0	"""n/a"""	2
743788	2000	1	547	1
746056	2000	1	"""n/a"""	2
748309	2000	1	727	1
750561	2000	0	0	1
752813	2000	0	0	1
755081	2000	0	"""n/a"""	2
757350	2000	1	498	1
759603	2000	1	678	1
761872	2000	1	"""n/a"""	2
764141	2000	0	"""n/a"""	2
766394	2000	0	0	1
768646	2000	0	0	1
770898	2000	0	0	1
773150	2000	0	0	1
775403	2000	0	"""n/a"""	2
777655	2000	1	724	1
779924	2000	0	0	1
782176	2000	0	0	1
784444	2000	1	"""n/a"""	2
786697	2000	1	975	1
788949	2000	0	0	1
791201	2000	0	"""n/a"""	2
793454	2000	1	682	1
795739	2000	1	"""n/a"""	2
797992	2000	0	0	1
800276	2000	0	0	1
802513	2000	0	0	1
804749	2000	0	"""n/a"""	2
807016	2000	1	765	1
809269	2000	0	0	1
811538	2000	0	"""n/a"""	2
813806	2000	1	679	1
816059	2000	0	839	1
818295	2000	1	972	1
820548	2000	0	"""n/a"""	2
822799	2000	1	794	1
825035	2000	0	0	1
827286	2000	0	"""n/a"""	2
829555	2000	0	0	1
831809	2000	0	"""n/a"""	2
834044	2000	1	989	1
836296	2000	0	0	1
838548	2000	0	0	1
840800	2000	0	"""n/a"""	2
843053	2000	1	925	1
845288	2000	0	0	1
847524	2000	1	722	1
849792	2000	0	"""n/a"""	2
852045	2000	1	848	1
854297	2000	1	876	1
856550	2000	0	0	1
858802	2000	0	0	1
861070	2000	0	"""n/a"""	2
863323	2000	0	0	1
865574	2000	0	"""n/a"""	2
867811	2000	1	939	1
870080	2000	0	0	1
872349	2000	0	0	1
874617	2000	0	"""n/a"""	2
876853	2000	0	0	1
879105	2000	0	"""n/a"""	2
881341	2000	1	934	1
883593	2000	0	0	1
885846	2000	0	"""n/a"""	2
888098	2000	0	0	1
890382	2000	0	0	1
892635	2000	0	0	1
894888	2000	0	0	1
897156	2000	0	"""n/a"""	2
899392	2000	0	0	1
901628	2000	1	859	1
903912	2000	1	"""n/a"""	2
906166	2000	1	"""n/a"""	2
908418	2000	0	0	1
910653	2000	0	0	1
912906	2000	0	0	1
915190	2000	0	"""n/a"""	2
917427	2000	0	0	1
919679	2000	0	0	1
921932	2000	0	"""n/a"""	2
924184	2000	1	618	1
926452	2000	1	774	1
928720	2000	0	0	1
930974	2000	0	"""n/a"""	2
933209	2000	1	992	1
935461	2000	0	0	1
937713	2000	0	0	1
939982	2000	1	"""n/a"""	2
942235	2000	0	0	1
944487	2000	0	0	1
946739	2000	1	951	1
948992	2000	0	"""n/a"""	2
951244	2000	1	846	1
953528	2000	1	808	1
955782	2000	0	"""n/a"""	2
958034	2000	1	590	1
960303	2000	0	0	1
962587	2000	0	"""n/a"""	2
964840	2000	0	0	1
967092	2000	0	"""n/a"""	2
969345	2000	1	801	1
971597	2000	0	0	1
973849	2000	0	0	1
976101	2000	0	"""n/a"""	2
1089631	2000	1	434	1
1091883	2000	1	522	1
1094135	2000	1	488	1
1096403	2000	1	"""n/a"""	2
1098673	2000	1	361	1
1100925	2000	1	473	1
1103178	2000	1	479	1
1105462	2000	1	459	1
1107716	2000	1	"""n/a"""	2
1109984	2000	1	476	1
1112237	2000	1	339	1
1114521	2000	1	"""n/a"""	2
1116774	2000	1	502	1
1119027	2000	1	508	1
1121296	2000	1	579	1
1123580	2000	1	"""n/a"""	2
1125850	2000	1	495	1
1128102	2000	1	487	1
1130371	2000	1	"""n/a"""	2
1132639	2000	1	658	1
1134892	2000	1	500	1
1137161	2000	1	"""n/a"""	2
1139430	2000	1	534	1
1141698	2000	1	424	1
1143951	2000	1	394	1
1146220	2000	1	"""n/a"""	2
1148489	2000	1	775	1
1150741	2000	1	563	1
1152994	2000	1	386	1
1155278	2000	0	"""n/a"""	2
1157547	2000	1	658	1
1159801	2000	1	"""n/a"""	2
1162069	2000	1	683	1
1164322	2000	1	666	1
1166591	2000	1	"""n/a"""	2
1168843	2000	1	845	1
1171128	2000	1	"""n/a"""	2
1173397	2000	1	620	1
1175665	2000	1	601	1
1177934	2000	1	"""n/a"""	2
1180220	2000	1	"""n/a"""	2
1182490	2000	1	412	1
1184774	2000	1	"""n/a"""	2
1187043	2000	1	326	1
1189296	2000	1	463	1
1191549	2000	1	417	1
1193833	2000	1	"""n/a"""	2
1196103	2000	1	353	1
1198355	2000	1	456	1
1200608	2000	1	469	1
1202892	2000	1	"""n/a"""	2
1205162	2000	1	617	1
1207414	2000	1	578	1
1209667	2000	0	833	1
1211951	2000	1	927	1
1214205	2000	1	"""n/a"""	2
1216457	2000	1	506	1
1218741	2000	1	488	1
1220994	2000	1	414	1
1223263	2000	1	"""n/a"""	2
1225532	2000	1	529	1
1227785	2000	1	"""n/a"""	2
1230053	2000	1	551	1
1232306	2000	1	671	1
1234590	2000	1	"""n/a"""	2
1236860	2000	1	499	1
1239112	2000	1	448	1
1241365	2000	1	484	1
1243649	2000	1	"""n/a"""	2
1245903	2000	1	537	1
1248171	2000	1	492	1
1250424	2000	1	419	1
1252708	2000	1	"""n/a"""	2
1254978	2000	1	508	1
1257230	2000	1	451	1
1259498	2000	1	"""n/a"""	2
1261768	2000	1	603	1
1264020	2000	1	552	1
1266273	2000	1	558	1
1268558	2000	1	"""n/a"""	2
1270827	2000	1	479	1
1273095	2000	1	413	1
1275348	2000	1	447	1
1277617	2000	1	"""n/a"""	2
1279886	2000	1	521	1
1282154	2000	1	"""n/a"""	2
1284424	2000	1	468	1
1286676	2000	1	477	1
1288928	2000	1	432	1
1291197	2000	1	"""n/a"""	2
1293466	2000	1	327	1
1295734	2000	1	406	1
1298003	2000	1	589	1
1300257	2000	1	"""n/a"""	2
1302525	2000	1	455	1
1304778	2000	1	471	1
1307046	2000	1	445	1
1309299	2000	1	381	1
1311584	2000	1	"""n/a"""	2
1313852	2000	1	"""n/a"""	2
1316122	2000	1	414	1
1318374	2000	1	522	1
1320643	2000	1	"""n/a"""	2
1322912	2000	0	302	1
1325180	2000	0	314	1
1327433	2000	1	498	1
1329702	2000	1	"""n/a"""	2
1331971	2000	1	600	1
1334223	2000	1	576	1
1336492	2000	1	"""n/a"""	2
1338761	2000	1	585	1
1341029	2000	1	"""n/a"""	2
1343283	2000	0	685	1
1345551	2000	1	787	1
1347804	2000	1	604	1
1350073	2000	1	921	1
1352358	2000	1	"""n/a"""	2
1354611	2000	1	950	1
1356879	2000	1	735	1
1359148	2000	1	"""n/a"""	2
